aX,aY,aZ,gX,gY,gZ
17.837,-6.761,16.501,0.590,-0.547,-2.374
18.182,-7.183,16.836,0.618,-0.556,-2.709
18.435,-7.599,17.119,0.645,-0.506,-3.059
18.498,-8.159,17.329,0.663,-0.397,-3.438
18.086,-8.806,17.444,0.685,-0.256,-3.839
17.353,-9.500,17.435,0.739,-0.100,-4.237
16.276,-10.223,17.162,0.821,0.058,-4.366
14.772,-11.004,16.582,0.933,0.232,-4.366
13.326,-11.602,15.859,1.037,0.320,-4.366
11.856,-12.215,15.117,1.144,0.379,-4.366
10.223,-12.905,14.427,1.254,0.418,-4.366
8.562,-13.652,13.973,1.399,0.436,-4.366
7.077,-14.274,13.465,1.551,0.429,-4.366
5.191,-14.696,12.546,1.728,0.431,-4.366
3.395,-14.739,11.727,1.843,0.362,-4.366
1.508,-14.643,11.056,1.909,0.257,-4.366
-0.565,-14.466,10.563,1.937,0.138,-4.366
-2.614,-14.236,10.285,1.934,0.012,-4.366
-4.621,-14.001,10.132,1.918,-0.104,-4.366
-6.440,-13.728,10.065,1.898,-0.193,-4.366
-8.126,-13.431,9.912,1.878,-0.235,-4.366
-9.811,-13.096,9.562,1.850,-0.236,-4.366
-10.965,-12.819,9.117,1.825,-0.190,-4.366
-11.918,-12.349,8.456,1.782,-0.107,-4.366
-12.756,-11.679,7.666,1.706,-0.009,-4.366
-13.551,-10.946,6.962,1.595,0.075,-4.366
-14.289,-10.300,6.493,1.461,0.137,-4.366
-15.026,-9.878,6.254,1.330,0.171,-4.366
-15.797,-9.553,6.096,1.219,0.177,-4.366
-16.654,-9.146,5.962,1.098,0.159,-4.366
-17.286,-8.792,6.005,1.001,0.141,-4.366
-17.703,-8.523,6.220,0.923,0.150,-4.366
-17.933,-8.198,6.464,0.868,0.195,-4.366
-18.028,-7.772,6.574,0.834,0.250,-4.227
-18.100,-7.326,6.613,0.812,0.279,-3.992
-18.287,-6.905,6.656,0.801,0.274,-3.786
-18.502,-6.541,6.737,0.804,0.256,-3.583
-18.704,-6.182,6.838,0.822,0.251,-3.367
-18.847,-5.851,6.804,0.846,0.260,-3.130
-18.881,-5.468,6.613,0.866,0.277,-2.878
-18.809,-4.994,6.330,0.868,0.290,-2.625
-18.646,-4.496,6.014,0.839,0.306,-2.369
-18.373,-3.970,5.717,0.775,0.329,-2.073
-18.062,-3.591,5.492,0.707,0.341,-1.828
-17.741,-3.223,5.248,0.640,0.332,-1.597
-17.411,-2.801,5.042,0.573,0.312,-1.372
-17.037,-2.365,4.855,0.501,0.284,-1.148
-16.592,-1.954,4.865,0.425,0.255,-0.923
-16.084,-1.590,5.018,0.357,0.229,-0.693
-15.452,-1.264,5.258,0.311,0.212,-0.465
-14.648,-0.905,5.420,0.281,0.211,-0.247
-13.748,-0.579,5.420,0.258,0.213,-0.054
-12.804,-0.215,5.219,0.231,0.218,0.111
-11.899,0.187,4.865,0.185,0.223,0.252
-11.085,0.560,4.535,0.109,0.217,0.373
-10.343,0.781,4.367,0.008,0.201,0.487
-9.467,0.962,4.539,-0.114,0.163,0.610
-8.667,1.049,4.817,-0.208,0.132,0.702
-7.930,1.092,5.143,-0.296,0.112,0.776
-7.317,1.111,5.507,-0.380,0.104,0.827
-6.814,1.039,5.942,-0.465,0.103,0.864
-6.412,0.943,6.440,-0.545,0.112,0.889
-6.076,0.795,6.967,-0.617,0.129,0.907
-5.775,0.642,7.489,-0.679,0.146,0.918
-5.555,0.498,7.992,-0.727,0.156,0.918
-5.401,0.383,8.471,-0.764,0.157,0.911
-5.262,0.239,8.950,-0.792,0.159,0.908
-5.181,0.057,9.438,-0.809,0.164,0.911
-5.143,-0.163,10.036,-0.804,0.174,0.922
-5.095,-0.393,10.606,-0.770,0.184,0.941
-5.047,-0.555,11.004,-0.713,0.199,0.961
-4.990,-0.642,11.143,-0.648,0.215,0.974
-4.994,-0.670,11.080,-0.591,0.228,0.976
-5.071,-0.680,11.004,-0.547,0.224,0.976
-5.181,-0.694,10.898,-0.512,0.213,0.978
-5.248,-0.709,10.716,-0.486,0.197,0.982
-5.325,-0.690,10.530,-0.469,0.183,0.987
-5.444,-0.728,10.405,-0.460,0.174,1.001
-5.564,-0.776,10.262,-0.452,0.175,1.029
-5.674,-0.795,10.123,-0.446,0.179,1.072
-5.703,-0.828,9.965,-0.442,0.181,1.125
-5.727,-0.843,9.807,-0.438,0.183,1.182
-5.722,-0.828,9.610,-0.437,0.190,1.241
-5.737,-0.819,9.400,-0.445,0.197,1.302
-5.641,-0.800,9.203,-0.464,0.201,1.362
-5.502,-0.766,9.026,-0.491,0.201,1.416
-5.262,-0.728,8.906,-0.530,0.196,1.460
-4.994,-0.680,8.825,-0.577,0.196,1.496
-4.736,-0.670,8.811,-0.630,0.199,1.528
-4.539,-0.699,8.878,-0.681,0.199,1.551
-4.410,-0.766,9.017,-0.723,0.191,1.575
-4.338,-0.862,9.261,-0.748,0.185,1.590
-4.348,-0.972,9.409,-0.757,0.179,1.595
-4.429,-1.120,9.586,-0.750,0.168,1.600
-4.511,-1.274,9.811,-0.720,0.151,1.626
-4.520,-1.350,9.936,-0.675,0.133,1.657
-4.487,-1.379,9.960,-0.624,0.119,1.687
-4.482,-1.346,9.888,-0.592,0.107,1.712
-4.477,-1.298,9.754,-0.578,0.100,1.742
-4.372,-1.269,9.687,-0.580,0.098,1.777

17.727,-7.240,16.697,0.047,-0.685,-3.123
18.000,-8.073,17.741,0.188,-0.616,-3.442
17.952,-8.724,18.100,0.357,-0.452,-3.771
17.377,-9.395,18.019,0.538,-0.229,-4.163
16.549,-10.027,17.856,0.671,-0.042,-4.366
15.558,-10.788,17.760,0.796,0.129,-4.366
14.475,-11.588,17.569,0.923,0.284,-4.366
13.273,-12.421,17.305,1.053,0.396,-4.366
11.669,-13.551,17.123,1.245,0.469,-4.366
10.156,-14.518,16.822,1.454,0.517,-4.366
8.265,-15.107,16.209,1.752,0.536,-4.366
6.282,-15.467,15.198,1.926,0.531,-4.366
4.156,-15.749,14.198,2.083,0.498,-4.366
2.002,-15.931,13.101,2.225,0.422,-4.366
-0.081,-15.955,11.914,2.346,0.333,-4.366
-2.495,-15.663,10.353,2.446,0.223,-4.366
-4.630,-15.170,9.021,2.479,0.126,-4.366
-6.895,-14.686,7.872,2.460,0.013,-4.366
-9.117,-14.298,7.029,2.405,-0.090,-4.366
-11.272,-14.030,6.493,2.325,-0.136,-4.366
-13.374,-13.704,6.091,2.221,-0.110,-4.366
-15.347,-13.384,5.756,2.090,-0.031,-4.366
-17.104,-12.986,5.555,1.933,0.075,-4.366
-18.421,-12.522,5.526,1.753,0.174,-4.366
-19.316,-12.048,5.808,1.570,0.298,-4.366
-19.676,-11.396,6.249,1.425,0.415,-4.366
-19.699,-10.961,6.761,1.270,0.517,-4.366
-19.532,-10.530,7.321,1.183,0.636,-4.366
-19.393,-9.989,7.628,1.156,0.731,-4.162
-19.225,-9.337,7.681,1.163,0.779,-3.876
-19.082,-8.543,7.446,1.186,0.783,-3.620
-18.804,-7.542,6.919,1.213,0.719,-3.362
-18.598,-6.680,6.455,1.228,0.617,-3.180
-18.498,-5.871,6.062,1.235,0.499,-3.022
-18.450,-5.210,5.737,1.228,0.398,-2.865
-18.478,-4.650,5.468,1.206,0.331,-2.691
-18.545,-4.180,5.258,1.165,0.290,-2.488
-18.502,-3.764,5.085,1.109,0.272,-2.258
-18.268,-3.266,5.047,1.039,0.283,-2.005
-17.894,-2.863,5.013,0.964,0.326,-1.741
-17.382,-2.461,5.061,0.892,0.393,-1.483
-16.841,-2.073,5.167,0.837,0.465,-1.237
-16.295,-1.676,5.148,0.798,0.540,-1.005
-15.687,-1.197,4.913,0.759,0.613,-0.753
-15.170,-0.766,4.583,0.718,0.650,-0.549
-14.648,-0.359,4.247,0.663,0.655,-0.356
-14.044,-0.005,3.926,0.597,0.635,-0.173
-13.360,0.330,3.625,0.523,0.594,-0.003
-12.632,0.666,3.294,0.438,0.536,0.148
-11.823,0.986,3.036,0.338,0.469,0.277
-11.028,1.250,2.921,0.221,0.392,0.386
-10.276,1.460,2.940,0.094,0.317,0.475
-9.615,1.571,3.055,-0.036,0.254,0.555
-9.045,1.666,3.270,-0.169,0.203,0.628
-8.590,1.686,3.634,-0.304,0.154,0.697
-8.231,1.575,4.295,-0.424,0.112,0.773
-7.815,1.403,5.148,-0.511,0.096,0.865
-7.345,1.255,5.962,-0.564,0.111,0.965
-6.790,1.202,6.555,-0.599,0.146,1.059
-6.177,1.207,7.039,-0.632,0.185,1.132
-5.526,1.178,7.513,-0.663,0.228,1.167
-4.922,1.135,7.963,-0.685,0.273,1.163
-4.559,1.049,8.341,-0.696,0.311,1.130
-4.372,0.958,8.586,-0.699,0.333,1.088
-4.338,0.871,8.772,-0.703,0.335,1.047
-4.343,0.814,8.950,-0.711,0.315,1.013
-4.367,0.699,9.237,-0.721,0.279,0.987
-4.338,0.565,9.538,-0.721,0.245,0.967
-4.343,0.431,9.845,-0.708,0.217,0.948
-4.415,0.302,10.151,-0.685,0.198,0.930
-4.559,0.134,10.429,-0.650,0.184,0.919
-4.731,-0.010,10.635,-0.600,0.173,0.916
-4.903,-0.110,10.625,-0.542,0.166,0.916
-5.133,-0.168,10.487,-0.482,0.159,0.919
-5.430,-0.230,10.247,-0.429,0.143,0.925
-5.813,-0.287,9.792,-0.381,0.113,0.949
-6.096,-0.326,9.390,-0.360,0.083,0.988
-6.273,-0.330,8.988,-0.360,0.046,1.044
-6.235,-0.302,8.739,-0.380,0.017,1.107
-6.067,-0.302,8.547,-0.418,0.006,1.169
-5.832,-0.321,8.490,-0.468,0.018,1.224
-5.593,-0.340,8.562,-0.524,0.044,1.272
-5.368,-0.378,8.662,-0.577,0.084,1.306
-5.258,-0.412,8.768,-0.628,0.129,1.330
-5.234,-0.455,8.902,-0.677,0.170,1.355
-5.253,-0.464,9.036,-0.726,0.200,1.387
-5.243,-0.488,9.155,-0.770,0.216,1.424
-5.138,-0.541,9.395,-0.804,0.212,1.462
-4.970,-0.637,9.658,-0.817,0.195,1.497
-4.764,-0.709,9.893,-0.808,0.178,1.522
-4.583,-0.757,10.008,-0.786,0.165,1.540
-4.420,-0.733,10.013,-0.764,0.148,1.548
-4.310,-0.699,10.003,-0.747,0.122,1.547
-4.238,-0.699,10.022,-0.736,0.098,1.551
-4.185,-0.709,10.094,-0.728,0.076,1.564
-4.099,-0.752,10.257,-0.717,0.056,1.586
-3.898,-0.785,10.348,-0.702,0.051,1.603
-3.601,-0.747,10.415,-0.686,0.064,1.628
-3.342,-0.713,10.424,-0.671,0.089,1.628
-3.184,-0.690,10.467,-0.655,0.118,1.607

16.826,-8.212,15.912,0.720,0.017,-3.808
16.170,-9.424,16.597,0.764,0.133,-4.122
15.251,-10.539,17.176,0.853,0.270,-4.366
14.073,-11.598,17.602,0.960,0.416,-4.366
12.819,-12.574,17.779,1.091,0.564,-4.366
11.454,-13.436,17.727,1.226,0.703,-4.366
9.835,-14.456,17.511,1.405,0.814,-4.366
8.265,-15.198,17.104,1.596,0.866,-4.366
6.728,-15.759,16.434,1.791,0.867,-4.366
5.090,-16.065,15.500,1.974,0.843,-4.366
3.610,-16.223,14.408,2.122,0.761,-4.366
2.222,-16.271,13.321,2.231,0.695,-4.366
0.747,-16.175,12.263,2.314,0.587,-4.366
-0.996,-15.998,11.032,2.366,0.452,-4.366
-2.543,-15.821,10.032,2.367,0.361,-4.366
-3.984,-15.591,9.170,2.330,0.304,-4.366
-5.358,-15.265,8.432,2.269,0.283,-4.366
-6.670,-14.925,7.915,2.196,0.279,-4.366
-8.073,-14.595,7.676,2.116,0.285,-4.366
-9.567,-14.317,7.609,2.043,0.296,-4.366
-11.047,-14.049,7.638,1.988,0.335,-4.366
-12.507,-13.757,7.638,1.944,0.384,-4.366
-13.853,-13.393,7.547,1.900,0.434,-4.366
-15.127,-12.938,7.355,1.843,0.483,-4.366
-15.878,-12.555,7.068,1.786,0.511,-4.366
-16.352,-12.043,6.685,1.716,0.523,-4.366
-16.592,-11.430,6.230,1.630,0.513,-4.366
-16.846,-10.827,5.947,1.545,0.483,-4.366
-17.238,-10.372,5.957,1.478,0.432,-4.366
-17.851,-9.960,6.110,1.449,0.375,-4.366
-18.780,-9.371,6.057,1.445,0.310,-4.188
-19.594,-8.763,5.770,1.430,0.246,-3.959
-20.183,-8.150,5.387,1.387,0.166,-3.681
-20.446,-7.527,5.085,1.318,0.095,-3.373
-20.327,-6.962,4.836,1.233,0.047,-3.058
-19.853,-6.345,4.621,1.142,0.036,-2.759
-19.288,-5.737,4.410,1.040,0.047,-2.500
-18.809,-5.191,4.338,0.941,0.066,-2.286
-18.550,-4.736,4.405,0.854,0.092,-2.094
-18.512,-4.391,4.621,0.789,0.134,-1.900
-18.531,-4.070,4.817,0.754,0.183,-1.689
-18.421,-3.701,4.956,0.737,0.221,-1.467
-18.115,-3.218,4.942,0.732,0.245,-1.205
-17.664,-2.840,4.903,0.728,0.266,-0.979
-17.119,-2.452,4.750,0.722,0.281,-0.758
-16.415,-1.978,4.410,0.706,0.268,-0.553
-15.625,-1.460,4.075,0.669,0.239,-0.366
-14.791,-1.034,3.792,0.608,0.212,-0.201
-14.064,-0.661,3.668,0.535,0.199,-0.049
-13.431,-0.421,3.644,0.464,0.180,0.094
-12.819,-0.187,3.716,0.392,0.174,0.240
-12.158,0.053,3.778,0.321,0.170,0.382
-11.401,0.292,3.850,0.246,0.166,0.514
-10.625,0.503,3.883,0.158,0.170,0.635
-9.764,0.685,3.936,0.057,0.173,0.738
-8.863,0.809,4.075,-0.051,0.176,0.816
-8.045,0.871,4.286,-0.159,0.179,0.866
-7.341,0.900,4.616,-0.265,0.179,0.893
-6.823,0.862,4.994,-0.365,0.178,0.903
-6.431,0.761,5.449,-0.454,0.172,0.903
-6.148,0.603,5.995,-0.520,0.160,0.898
-5.952,0.450,6.536,-0.568,0.143,0.893
-5.794,0.287,7.144,-0.599,0.126,0.894
-5.689,0.057,7.901,-0.603,0.114,0.911
-5.516,-0.101,8.552,-0.579,0.117,0.942
-5.286,-0.120,8.906,-0.547,0.132,0.976
-5.023,-0.096,9.084,-0.525,0.146,0.999
-4.784,-0.086,9.261,-0.516,0.152,1.009
-4.525,-0.144,9.428,-0.507,0.158,1.018
-4.286,-0.158,9.543,-0.495,0.167,1.022
-4.056,-0.192,9.644,-0.482,0.173,1.016
-3.888,-0.196,9.658,-0.470,0.168,1.002
-3.802,-0.211,9.634,-0.459,0.153,0.980
-3.740,-0.215,9.596,-0.452,0.138,0.954
-3.721,-0.220,9.577,-0.449,0.118,0.928
-3.745,-0.259,9.629,-0.445,0.099,0.903
-3.802,-0.326,9.744,-0.437,0.082,0.885
-3.859,-0.460,9.922,-0.416,0.074,0.881
-3.893,-0.517,10.036,-0.384,0.078,0.885
-3.955,-0.484,9.936,-0.357,0.097,0.888
-4.085,-0.474,9.816,-0.356,0.116,0.891
-4.228,-0.522,9.754,-0.367,0.126,0.902
-4.271,-0.584,9.764,-0.377,0.133,0.920
-4.262,-0.608,9.730,-0.382,0.137,0.938
-4.233,-0.608,9.711,-0.386,0.135,0.945
-4.305,-0.608,9.663,-0.392,0.124,0.948
-4.348,-0.632,9.634,-0.401,0.117,0.954
-4.338,-0.656,9.634,-0.414,0.115,0.967
-4.271,-0.666,9.677,-0.427,0.112,0.982
-4.190,-0.704,9.682,-0.435,0.112,0.990
-4.128,-0.752,9.754,-0.437,0.108,0.992
-4.094,-0.824,9.764,-0.425,0.104,0.988
-4.137,-0.843,9.663,-0.408,0.095,0.980
-4.209,-0.819,9.491,-0.401,0.082,0.974
-4.300,-0.752,9.285,-0.408,0.062,0.966
-4.343,-0.742,9.136,-0.427,0.037,0.962
-4.353,-0.781,9.093,-0.447,0.014,0.956
-4.367,-0.809,9.074,-0.465,0.002,0.950
-4.477,-0.857,9.017,-0.480,-0.003,0.950
-4.640,-0.924,9.021,-0.493,0.001,0.963

18.292,-5.655,17.248,0.034,-0.595,-1.493
18.833,-6.282,17.870,0.131,-0.652,-1.909
19.297,-7.049,18.569,0.271,-0.673,-2.388
19.508,-7.719,19.077,0.406,-0.651,-2.790
19.680,-8.461,19.474,0.550,-0.589,-3.188
19.632,-9.208,19.642,0.706,-0.472,-3.587
19.355,-9.993,19.489,0.869,-0.320,-3.984
18.809,-10.716,19.101,1.018,-0.139,-4.366
18.047,-11.535,18.641,1.155,0.045,-4.366
16.999,-12.603,18.024,1.307,0.238,-4.366
15.907,-13.499,17.415,1.436,0.380,-4.366
14.667,-14.480,16.803,1.569,0.486,-4.366
13.149,-15.510,16.185,1.713,0.564,-4.366
11.334,-16.601,15.581,1.881,0.609,-4.366
8.887,-17.593,14.863,2.092,0.638,-4.366
6.383,-18.138,14.059,2.284,0.652,-4.366
3.735,-18.526,13.015,2.473,0.638,-4.366
0.848,-18.660,11.684,2.637,0.615,-4.366
-2.342,-18.574,10.290,2.762,0.560,-4.366
-5.679,-18.541,8.887,2.860,0.468,-4.366
-8.854,-18.426,7.518,2.929,0.318,-4.366
-11.602,-18.129,6.134,2.924,0.166,-4.366
-14.011,-17.583,4.717,2.826,0.006,-4.366
-16.271,-16.496,3.199,2.596,-0.188,-4.366
-17.751,-15.428,2.088,2.294,-0.311,-4.366
-18.766,-14.437,1.355,1.944,-0.349,-4.366
-19.484,-13.599,1.087,1.575,-0.305,-4.366
-20.130,-12.943,1.384,1.225,-0.213,-4.366
-20.983,-12.517,2.251,0.941,-0.092,-4.366
-22.094,-12.244,3.414,0.746,0.029,-4.366
-23.636,-11.923,4.764,0.636,0.157,-4.366
-24.699,-11.516,5.602,0.617,0.248,-4.366
-25.273,-10.961,6.072,0.640,0.342,-4.129
-25.489,-10.266,6.292,0.681,0.414,-3.720
-25.379,-9.491,6.354,0.723,0.440,-3.336
-25.048,-8.701,6.397,0.761,0.420,-2.981
-24.646,-8.011,6.541,0.803,0.366,-2.643
-24.162,-7.283,6.752,0.872,0.277,-2.295
-23.262,-6.474,6.828,0.953,0.200,-1.922
-21.586,-5.296,6.579,1.032,0.175,-1.477
-19.810,-4.219,6.167,1.063,0.176,-1.143
-18.019,-3.203,5.598,1.049,0.202,-0.864
-16.362,-2.303,5.076,0.991,0.235,-0.642
-14.825,-1.614,4.702,0.909,0.286,-0.463
-13.465,-1.020,4.377,0.819,0.339,-0.315
-12.139,-0.474,4.075,0.724,0.394,-0.194
-10.942,0.053,3.735,0.615,0.447,-0.100
-9.869,0.541,3.419,0.488,0.472,-0.032
-8.930,0.934,3.352,0.341,0.449,0.004
-8.169,1.178,3.596,0.189,0.404,0.015
-7.628,1.293,4.089,0.053,0.358,0.015
-7.321,1.317,4.755,-0.053,0.308,0.016
-7.092,1.269,5.435,-0.127,0.260,0.022
-6.924,1.245,6.019,-0.180,0.230,0.036
-6.790,1.207,6.507,-0.222,0.202,0.058
-6.608,1.154,6.910,-0.257,0.187,0.085
-6.402,1.068,7.326,-0.286,0.179,0.111
-6.158,0.991,7.685,-0.307,0.185,0.135
-5.962,0.867,8.001,-0.318,0.203,0.152
-5.784,0.757,8.289,-0.318,0.225,0.165
-5.693,0.661,8.394,-0.309,0.249,0.174
-5.626,0.627,8.384,-0.304,0.270,0.184
-5.588,0.555,8.332,-0.306,0.279,0.195
-5.535,0.445,8.351,-0.313,0.275,0.206
-5.516,0.306,8.437,-0.314,0.258,0.212
-5.583,0.101,8.633,-0.297,0.229,0.219
-5.751,-0.043,8.748,-0.262,0.200,0.231
-5.895,-0.091,8.705,-0.232,0.180,0.253
-5.981,-0.139,8.586,-0.222,0.162,0.280
-6.024,-0.215,8.581,-0.229,0.140,0.307
-5.990,-0.297,8.667,-0.243,0.125,0.338
-5.952,-0.354,8.724,-0.261,0.121,0.372
-5.899,-0.417,8.787,-0.281,0.127,0.404
-5.890,-0.517,8.878,-0.302,0.133,0.438
-5.923,-0.622,8.959,-0.322,0.137,0.473
-5.957,-0.718,9.036,-0.339,0.143,0.513
-5.942,-0.824,9.189,-0.349,0.150,0.560
-5.875,-0.867,9.251,-0.355,0.159,0.608
-5.760,-0.881,9.313,-0.357,0.166,0.653
-5.650,-0.915,9.371,-0.355,0.166,0.691
-5.578,-0.934,9.376,-0.350,0.161,0.727
-5.511,-0.934,9.328,-0.347,0.144,0.760
-5.392,-0.919,9.246,-0.347,0.118,0.784
-5.229,-0.876,9.213,-0.353,0.091,0.796
-5.143,-0.862,9.160,-0.360,0.066,0.803
-5.124,-0.828,9.084,-0.369,0.045,0.811
-5.109,-0.804,9.064,-0.383,0.025,0.827
-5.047,-0.809,9.079,-0.400,0.007,0.848
-4.932,-0.809,9.151,-0.416,-0.004,0.873
-4.741,-0.814,9.199,-0.427,-0.001,0.896
-4.583,-0.828,9.232,-0.435,0.013,0.918
-4.506,-0.848,9.218,-0.442,0.034,0.939
-4.405,-0.838,9.232,-0.449,0.054,0.964
-4.257,-0.819,9.184,-0.459,0.071,0.984
-4.104,-0.814,9.098,-0.474,0.083,0.990
-4.032,-0.819,9.055,-0.495,0.090,0.983
-4.075,-0.795,8.983,-0.515,0.088,0.966
-4.171,-0.804,8.993,-0.535,0.080,0.947
-4.324,-0.867,9.007,-0.551,0.061,0.931
-4.501,-0.943,9.021,-0.560,0.037,0.923

17.947,-7.197,15.802,0.332,-0.371,-2.313
17.655,-7.930,16.290,0.430,-0.212,-2.730
17.147,-8.619,16.707,0.549,-0.037,-3.093
16.443,-9.342,16.879,0.705,0.174,-3.447
15.912,-9.926,16.783,0.841,0.339,-3.711
15.495,-10.458,16.573,0.974,0.486,-3.965
15.237,-10.918,16.161,1.092,0.618,-4.235
14.873,-11.439,15.663,1.198,0.738,-4.366
14.183,-12.038,15.165,1.295,0.834,-4.366
12.819,-12.881,14.528,1.406,0.911,-4.366
11.253,-13.585,13.934,1.504,0.953,-4.366
9.548,-14.150,13.360,1.624,0.951,-4.366
7.671,-14.657,12.742,1.755,0.962,-4.366
5.473,-15.055,12.019,1.903,0.903,-4.366
3.136,-15.237,11.181,2.066,0.817,-4.366
0.441,-15.313,10.046,2.221,0.733,-4.366
-3.132,-15.170,8.404,2.367,0.611,-4.366
-6.483,-14.801,6.900,2.429,0.466,-4.366
-10.013,-14.269,5.430,2.398,0.277,-4.366
-13.345,-13.728,4.209,2.266,0.037,-4.366
-16.084,-13.063,3.361,2.048,-0.208,-4.366
-18.014,-12.321,2.945,1.771,-0.435,-4.366
-18.852,-11.655,3.036,1.472,-0.602,-4.366
-18.699,-11.128,3.529,1.195,-0.623,-4.366
-18.387,-10.616,4.175,0.934,-0.403,-4.366
-18.675,-10.214,4.597,0.761,-0.151,-4.366
-19.288,-9.883,4.990,0.620,0.098,-4.366
-20.164,-9.606,5.239,0.506,0.316,-4.366
-20.858,-9.270,5.598,0.414,0.422,-4.097
-21.237,-8.930,6.153,0.348,0.459,-3.787
-21.342,-8.547,6.814,0.316,0.432,-3.487
-21.141,-8.126,7.470,0.315,0.367,-3.206
-20.739,-7.647,7.968,0.336,0.290,-2.951
-20.231,-7.063,8.308,0.372,0.201,-2.720
-19.527,-6.316,8.480,0.416,0.086,-2.465
-18.771,-5.693,8.514,0.449,-0.007,-2.260
-17.952,-5.124,8.504,0.474,-0.079,-2.069
-17.162,-4.573,8.423,0.494,-0.117,-1.885
-16.395,-4.013,8.217,0.500,-0.120,-1.704
-15.596,-3.462,8.016,0.486,-0.097,-1.528
-14.767,-2.978,7.843,0.453,-0.041,-1.359
-13.949,-2.538,7.724,0.406,0.032,-1.202
-13.139,-2.212,7.676,0.359,0.099,-1.063
-12.445,-1.968,7.690,0.330,0.150,-0.949
-11.914,-1.724,7.705,0.327,0.185,-0.850
-11.530,-1.470,7.633,0.343,0.209,-0.751
-11.200,-1.164,7.379,0.364,0.214,-0.649
-10.716,-0.781,7.034,0.374,0.182,-0.535
-10.228,-0.479,6.814,0.372,0.131,-0.450
-9.787,-0.244,6.651,0.357,0.079,-0.371
-9.361,-0.101,6.613,0.347,0.024,-0.284
-8.926,-0.057,6.622,0.346,-0.009,-0.184
-8.413,0.110,6.503,0.346,-0.024,-0.079
-7.858,0.335,6.263,0.319,-0.028,0.014
-7.312,0.498,6.076,0.256,-0.024,0.083
-6.881,0.589,6.110,0.172,-0.023,0.133
-6.464,0.551,6.354,0.092,-0.011,0.175
-6.129,0.484,6.651,0.025,0.026,0.209
-5.923,0.431,6.938,-0.030,0.067,0.237
-5.827,0.378,7.187,-0.073,0.103,0.266
-5.708,0.311,7.432,-0.108,0.126,0.296
-5.559,0.268,7.628,-0.136,0.139,0.327
-5.334,0.215,7.815,-0.161,0.137,0.354
-5.085,0.148,8.059,-0.179,0.121,0.369
-4.889,0.081,8.265,-0.192,0.098,0.371
-4.803,0.005,8.399,-0.207,0.074,0.367
-4.812,-0.105,8.576,-0.223,0.051,0.364
-4.827,-0.230,8.758,-0.237,0.032,0.367
-4.851,-0.340,8.930,-0.251,0.021,0.377
-4.855,-0.450,9.079,-0.266,0.021,0.401
-4.836,-0.527,9.232,-0.282,0.033,0.436
-4.712,-0.579,9.395,-0.300,0.058,0.478
-4.525,-0.661,9.591,-0.316,0.093,0.521
-4.257,-0.699,9.749,-0.328,0.138,0.560
-3.970,-0.757,9.902,-0.331,0.191,0.588
-3.725,-0.838,10.060,-0.328,0.245,0.602
-3.601,-0.924,10.195,-0.314,0.293,0.605
-3.615,-0.996,10.319,-0.288,0.320,0.604
-3.740,-1.049,10.353,-0.259,0.324,0.603
-3.898,-1.101,10.324,-0.229,0.311,0.603
-4.075,-1.125,10.175,-0.207,0.280,0.605
-4.204,-1.130,10.118,-0.190,0.234,0.613
-4.214,-1.130,10.080,-0.175,0.178,0.624
-4.137,-1.140,10.046,-0.163,0.130,0.639
-3.979,-1.106,10.017,-0.149,0.098,0.653
-3.754,-1.053,10.017,-0.137,0.082,0.660
-3.524,-0.977,9.974,-0.132,0.079,0.656
-3.347,-0.919,9.898,-0.137,0.086,0.644
-3.294,-0.881,9.773,-0.149,0.103,0.632
-3.352,-0.852,9.697,-0.172,0.121,0.629
-3.486,-0.891,9.687,-0.199,0.131,0.642
-3.634,-0.939,9.740,-0.230,0.131,0.685
-3.587,-0.958,9.807,-0.254,0.130,0.737
-3.357,-0.929,9.835,-0.278,0.130,0.784
-3.021,-0.919,9.922,-0.299,0.134,0.808
-2.725,-0.915,9.993,-0.318,0.143,0.802
-2.581,-0.929,10.118,-0.330,0.157,0.778
-2.514,-0.929,10.190,-0.338,0.172,0.746
-2.514,-0.934,10.185,-0.349,0.186,0.704
-2.653,-0.953,10.238,-0.362,0.189,0.658

18.866,-2.658,20.193,0.371,0.395,-1.502
19.948,-3.151,20.566,0.591,0.505,-1.906
20.662,-3.754,20.681,0.832,0.620,-2.366
20.877,-4.621,20.427,1.135,0.739,-2.945
20.274,-5.387,19.881,1.410,0.820,-3.461
19.029,-6.211,18.996,1.683,0.839,-3.958
17.530,-7.163,17.870,1.943,0.818,-4.366
15.639,-8.107,16.597,2.190,0.787,-4.366
13.542,-9.007,15.208,2.413,0.727,-4.366
11.449,-9.701,13.824,2.602,0.666,-4.366
8.863,-10.348,12.048,2.789,0.558,-4.366
6.795,-10.774,10.587,2.907,0.404,-4.366
4.860,-11.152,9.199,2.956,0.346,-4.366
2.643,-11.320,7.757,2.945,0.340,-4.366
0.364,-11.296,6.330,2.865,0.255,-4.366
-1.547,-11.243,5.109,2.727,0.120,-4.366
-3.117,-11.147,4.137,2.539,0.007,-4.366
-4.549,-10.985,3.472,2.321,-0.087,-4.366
-5.918,-10.874,3.156,2.100,-0.165,-4.366
-7.264,-10.851,3.112,1.896,-0.197,-4.366
-8.691,-10.827,3.127,1.717,-0.181,-4.366
-10.429,-10.731,3.227,1.533,-0.120,-4.366
-11.918,-10.630,3.390,1.383,-0.048,-4.366
-13.317,-10.400,3.572,1.234,0.027,-4.366
-14.442,-10.233,3.735,1.075,0.074,-4.366
-15.208,-10.223,4.051,0.920,0.104,-4.366
-15.763,-10.180,4.506,0.775,0.151,-4.096
-16.214,-10.056,4.951,0.646,0.217,-3.814
-16.735,-9.711,5.325,0.512,0.279,-3.516
-17.195,-9.409,5.641,0.409,0.290,-3.288
-17.751,-9.141,6.067,0.331,0.262,-3.074
-18.397,-8.835,6.517,0.286,0.197,-2.860
-18.953,-8.442,6.929,0.268,0.090,-2.626
-19.201,-7.968,7.245,0.266,-0.027,-2.361
-19.115,-7.412,7.432,0.275,-0.109,-2.074
-18.656,-6.891,7.508,0.285,-0.154,-1.784
-17.909,-6.402,7.561,0.299,-0.183,-1.512
-17.071,-5.914,7.575,0.314,-0.199,-1.273
-16.257,-5.430,7.518,0.324,-0.211,-1.068
-15.443,-4.908,7.422,0.323,-0.217,-0.888
-14.485,-4.357,7.307,0.313,-0.206,-0.714
-13.795,-3.864,7.293,0.297,-0.188,-0.591
-13.269,-3.381,7.250,0.281,-0.170,-0.480
-12.828,-2.921,7.235,0.265,-0.155,-0.367
-12.402,-2.437,7.168,0.248,-0.139,-0.240
-11.861,-1.925,7.053,0.220,-0.130,-0.103
-11.143,-1.446,6.986,0.180,-0.122,0.035
-10.281,-0.996,7.010,0.135,-0.122,0.157
-9.352,-0.599,7.092,0.087,-0.120,0.261
-8.384,-0.259,7.173,0.045,-0.114,0.337
-7.499,0.029,7.269,0.008,-0.093,0.386
-6.756,0.244,7.441,-0.022,-0.069,0.408
-6.172,0.402,7.580,-0.041,-0.052,0.409
-5.722,0.575,7.724,-0.050,-0.040,0.398
-5.435,0.670,7.867,-0.054,-0.036,0.386
-5.171,0.747,7.987,-0.052,-0.035,0.377
-4.903,0.824,8.025,-0.050,-0.033,0.372
-4.616,0.905,8.040,-0.060,-0.028,0.360
-4.396,0.929,8.088,-0.079,-0.023,0.342
-4.243,0.886,8.217,-0.101,-0.018,0.322
-4.199,0.781,8.341,-0.123,-0.012,0.310
-4.171,0.675,8.523,-0.144,-0.002,0.308
-4.070,0.589,8.662,-0.165,0.011,0.318
-3.917,0.493,8.801,-0.188,0.022,0.326
-3.754,0.412,8.959,-0.212,0.033,0.330
-3.596,0.316,9.160,-0.233,0.050,0.335
-3.438,0.230,9.347,-0.244,0.071,0.336
-3.304,0.172,9.467,-0.248,0.094,0.332
-3.275,0.129,9.481,-0.248,0.111,0.325
-3.357,0.091,9.457,-0.250,0.122,0.321
-3.428,0.019,9.491,-0.256,0.123,0.326
-3.390,-0.105,9.610,-0.256,0.116,0.337
-3.280,-0.201,9.697,-0.251,0.106,0.337
-3.199,-0.273,9.764,-0.245,0.096,0.326
-3.218,-0.369,9.898,-0.238,0.091,0.313
-3.304,-0.474,10.022,-0.223,0.096,0.306
-3.376,-0.527,10.094,-0.199,0.107,0.308
-3.428,-0.527,10.046,-0.175,0.118,0.315
-3.476,-0.484,9.941,-0.157,0.117,0.321
-3.486,-0.445,9.826,-0.145,0.106,0.324
-3.476,-0.421,9.692,-0.136,0.098,0.323
-3.529,-0.397,9.548,-0.134,0.089,0.319
-3.634,-0.369,9.380,-0.143,0.073,0.317
-3.730,-0.364,9.222,-0.159,0.055,0.319
-3.840,-0.397,9.179,-0.181,0.042,0.328
-3.946,-0.460,9.218,-0.201,0.032,0.345
-3.994,-0.517,9.299,-0.217,0.032,0.371
-4.003,-0.551,9.380,-0.230,0.043,0.405
-3.974,-0.546,9.433,-0.245,0.061,0.439
-3.879,-0.551,9.558,-0.259,0.073,0.468
-3.711,-0.603,9.744,-0.265,0.084,0.491
-3.486,-0.670,9.902,-0.257,0.094,0.498
-3.342,-0.694,9.993,-0.242,0.100,0.493
-3.318,-0.699,10.022,-0.230,0.094,0.479
-3.390,-0.728,10.008,-0.223,0.078,0.464
-3.572,-0.785,10.027,-0.220,0.056,0.450
-3.759,-0.824,10.060,-0.217,0.031,0.448
-3.936,-0.871,10.094,-0.214,0.006,0.457
-4.065,-0.910,10.075,-0.211,-0.013,0.473
-4.161,-0.919,10.008,-0.209,-0.023,0.494

18.847,-4.611,19.709,-0.652,-0.255,0.986
21.926,-5.061,21.462,-0.610,-0.161,0.692
24.565,-5.459,22.845,-0.478,-0.063,0.242
26.466,-5.765,23.674,-0.263,0.070,-0.336
27.514,-6.100,23.985,-0.002,0.228,-1.010
27.586,-6.503,23.865,0.298,0.380,-1.745
26.671,-7.029,23.377,0.636,0.473,-2.508
24.426,-7.676,22.285,1.065,0.422,-3.358
22.170,-8.174,20.944,1.419,0.288,-3.990
20.001,-8.638,19.321,1.740,0.123,-4.366
17.980,-9.017,17.497,2.017,-0.073,-4.366
16.328,-9.385,15.672,2.245,-0.233,-4.366
14.667,-9.902,13.872,2.440,-0.371,-4.366
13.115,-10.319,12.086,2.611,-0.480,-4.366
11.143,-10.745,9.898,2.749,-0.519,-4.366
9.199,-10.965,7.987,2.803,-0.511,-4.366
7.082,-11.253,6.033,2.801,-0.484,-4.366
4.769,-11.554,4.223,2.733,-0.500,-4.366
2.495,-11.914,2.811,2.579,-0.524,-4.366
0.067,-12.426,1.896,2.348,-0.491,-4.366
-2.648,-12.948,1.374,2.059,-0.468,-4.366
-5.416,-13.494,1.293,1.736,-0.494,-4.366
-8.126,-14.097,1.915,1.377,-0.536,-4.366
-10.874,-14.734,3.151,1.025,-0.588,-4.366
-13.968,-15.409,5.277,0.694,-0.642,-4.366
-16.281,-15.744,7.226,0.500,-0.630,-4.366
-18.134,-15.912,8.863,0.390,-0.521,-4.366
-19.527,-15.768,9.974,0.351,-0.324,-4.366
-20.523,-15.380,10.578,0.352,-0.078,-4.366
-21.131,-14.753,10.793,0.363,0.154,-4.366
-21.395,-13.910,10.745,0.379,0.366,-4.348
-21.208,-13.269,10.669,0.400,0.505,-3.966
-20.834,-12.737,10.520,0.446,0.637,-3.642
-20.552,-12.172,10.080,0.517,0.755,-3.373
-20.451,-11.468,9.352,0.580,0.834,-3.145
-20.581,-10.736,8.566,0.619,0.867,-2.918
-20.700,-9.855,7.681,0.624,0.838,-2.639
-20.595,-9.160,7.135,0.605,0.764,-2.382
-20.303,-8.485,6.838,0.574,0.650,-2.121
-19.786,-7.829,6.704,0.542,0.512,-1.862
-19.106,-7.140,6.613,0.515,0.377,-1.609
-18.292,-6.354,6.527,0.481,0.274,-1.363
-17.329,-5.478,6.402,0.436,0.213,-1.128
-16.228,-4.640,6.311,0.380,0.176,-0.918
-15.141,-4.022,6.436,0.329,0.172,-0.731
-14.241,-3.639,6.862,0.317,0.200,-0.548
-13.503,-3.333,7.230,0.374,0.245,-0.357
-12.594,-2.648,7.039,0.477,0.311,-0.116
-11.607,-1.887,6.393,0.528,0.379,0.086
-10.511,-1.077,5.569,0.511,0.426,0.246
-9.495,-0.450,4.908,0.436,0.436,0.353
-8.653,-0.053,4.611,0.329,0.411,0.416
-7.968,0.220,4.616,0.222,0.361,0.452
-7.412,0.335,4.846,0.139,0.292,0.476
-6.934,0.421,5.152,0.087,0.225,0.502
-6.460,0.532,5.382,0.053,0.171,0.524
-5.995,0.694,5.545,0.013,0.128,0.543
-5.550,0.843,5.847,-0.045,0.088,0.558
-5.104,0.857,6.306,-0.103,0.051,0.568
-4.726,0.795,6.881,-0.153,0.028,0.575
-4.439,0.680,7.465,-0.185,0.016,0.579
-4.257,0.584,7.910,-0.202,0.016,0.583
-4.065,0.527,8.274,-0.214,0.027,0.594
-3.840,0.469,8.566,-0.223,0.048,0.606
-3.587,0.397,8.815,-0.234,0.075,0.605
-3.400,0.326,9.031,-0.239,0.094,0.589
-3.328,0.230,9.251,-0.236,0.102,0.567
-3.328,0.144,9.385,-0.225,0.103,0.549
-3.333,0.096,9.452,-0.213,0.100,0.545
-3.256,0.053,9.452,-0.212,0.091,0.548
-3.031,0.000,9.505,-0.216,0.082,0.545
-2.792,-0.062,9.582,-0.222,0.074,0.521
-2.672,-0.120,9.639,-0.228,0.070,0.485
-2.749,-0.211,9.740,-0.234,0.070,0.452
-2.921,-0.292,9.850,-0.237,0.065,0.433
-3.050,-0.369,9.993,-0.237,0.052,0.431
-3.065,-0.426,10.199,-0.232,0.034,0.439
-2.998,-0.450,10.338,-0.218,0.026,0.450
-2.916,-0.493,10.410,-0.197,0.028,0.456
-2.907,-0.493,10.381,-0.168,0.035,0.456
-2.926,-0.460,10.290,-0.145,0.037,0.456
-2.916,-0.412,10.127,-0.129,0.044,0.459
-2.921,-0.369,9.946,-0.123,0.052,0.459
-2.926,-0.359,9.826,-0.128,0.054,0.453
-2.998,-0.402,9.697,-0.141,0.054,0.444
-3.146,-0.450,9.663,-0.156,0.054,0.439
-3.294,-0.488,9.634,-0.169,0.052,0.438
-3.433,-0.546,9.591,-0.180,0.048,0.441
-3.548,-0.599,9.505,-0.193,0.043,0.447
-3.687,-0.613,9.390,-0.208,0.037,0.453
-3.816,-0.690,9.337,-0.226,0.028,0.463
-3.936,-0.781,9.342,-0.241,0.020,0.478
-4.056,-0.934,9.457,-0.248,0.014,0.503
-4.070,-1.015,9.601,-0.241,0.012,0.535
-3.936,-1.044,9.697,-0.226,0.012,0.567
-3.721,-1.006,9.744,-0.209,0.012,0.580
-3.610,-0.948,9.730,-0.199,0.009,0.572
-3.716,-0.934,9.711,-0.196,-0.005,0.554
-3.946,-0.962,9.725,-0.194,-0.024,0.547
-4.185,-0.996,9.711,-0.189,-0.046,0.558

17.411,-5.689,18.814,-0.106,-0.418,-0.085
18.704,-6.096,19.561,0.070,-0.317,-0.567
19.470,-6.479,20.020,0.227,-0.244,-1.010
20.087,-6.938,20.442,0.385,-0.159,-1.458
20.413,-7.427,20.691,0.552,-0.040,-1.903
20.456,-7.910,20.686,0.729,0.077,-2.349
20.154,-8.370,20.466,0.911,0.199,-2.793
19.436,-8.839,19.925,1.093,0.317,-3.220
18.431,-9.270,19.125,1.273,0.435,-3.615
17.248,-9.749,17.913,1.468,0.581,-4.040
16.156,-10.166,16.731,1.621,0.724,-4.366
14.691,-10.649,15.601,1.760,0.833,-4.366
13.130,-11.100,14.432,1.897,0.902,-4.366
11.674,-11.444,13.163,2.016,0.985,-4.366
9.610,-11.794,11.641,2.131,1.059,-4.366
7.738,-12.038,10.491,2.223,1.051,-4.366
5.626,-12.368,9.419,2.313,1.024,-4.366
3.160,-12.503,8.413,2.408,0.954,-4.366
0.488,-12.641,7.408,2.497,0.820,-4.366
-2.346,-12.694,6.345,2.582,0.616,-4.366
-5.253,-12.608,5.296,2.629,0.345,-4.366
-8.045,-12.407,4.424,2.609,0.037,-4.366
-10.721,-12.072,3.716,2.503,-0.269,-4.366
-13.202,-11.770,3.381,2.316,-0.563,-4.366
-15.658,-11.487,3.601,2.038,-0.851,-4.366
-17.305,-11.243,4.214,1.777,-1.012,-4.366
-18.378,-10.970,4.966,1.542,-1.042,-4.366
-18.938,-10.635,5.641,1.336,-0.940,-4.366
-19.144,-10.171,6.033,1.163,-0.711,-4.366
-19.245,-9.610,6.230,1.009,-0.426,-4.366
-19.326,-9.103,6.340,0.867,-0.140,-4.190
-19.527,-8.681,6.651,0.750,0.125,-3.780
-19.628,-8.313,6.953,0.701,0.285,-3.452
-19.604,-7.824,7.092,0.678,0.379,-3.151
-19.431,-7.226,7.092,0.666,0.416,-2.880
-19.182,-6.627,7.053,0.657,0.405,-2.632
-18.866,-6.038,7.049,0.649,0.367,-2.398
-18.440,-5.444,7.034,0.639,0.302,-2.169
-17.808,-4.841,7.044,0.625,0.212,-1.946
-16.989,-4.223,6.991,0.607,0.114,-1.735
-16.008,-3.620,6.972,0.583,0.022,-1.548
-15.036,-3.108,6.900,0.551,-0.049,-1.382
-14.102,-2.614,6.804,0.508,-0.093,-1.236
-13.230,-2.164,6.728,0.453,-0.123,-1.106
-12.254,-1.906,6.991,0.401,-0.131,-0.966
-11.377,-1.690,7.240,0.384,-0.090,-0.851
-10.568,-1.393,7.293,0.378,-0.008,-0.744
-9.855,-0.986,7.116,0.362,0.081,-0.650
-9.218,-0.637,6.871,0.321,0.154,-0.580
-8.681,-0.364,6.665,0.260,0.213,-0.533
-8.289,-0.144,6.507,0.195,0.256,-0.499
-8.030,-0.024,6.479,0.135,0.282,-0.468
-7.882,0.024,6.584,0.098,0.292,-0.427
-7.743,0.014,6.771,0.089,0.281,-0.370
-7.594,0.062,6.929,0.114,0.256,-0.302
-7.460,0.139,6.996,0.155,0.220,-0.225
-7.326,0.335,6.934,0.189,0.181,-0.142
-7.077,0.560,6.795,0.200,0.141,-0.057
-6.665,0.785,6.694,0.179,0.111,0.024
-6.153,0.905,6.637,0.135,0.089,0.088
-5.626,0.924,6.709,0.085,0.076,0.128
-5.258,0.871,6.857,0.042,0.070,0.149
-5.033,0.814,6.991,0.007,0.071,0.162
-4.980,0.795,6.991,-0.026,0.075,0.170
-5.028,0.776,6.953,-0.070,0.075,0.179
-5.104,0.757,7.044,-0.124,0.072,0.195
-5.085,0.656,7.298,-0.178,0.064,0.221
-4.899,0.546,7.599,-0.219,0.060,0.248
-4.664,0.464,7.853,-0.250,0.065,0.267
-4.487,0.431,8.054,-0.281,0.077,0.275
-4.386,0.373,8.260,-0.318,0.097,0.284
-4.391,0.249,8.562,-0.351,0.118,0.300
-4.372,0.134,8.969,-0.366,0.140,0.327
-4.324,0.048,9.323,-0.363,0.158,0.357
-4.219,-0.014,9.586,-0.344,0.170,0.382
-4.137,-0.043,9.730,-0.316,0.175,0.394
-4.104,-0.062,9.749,-0.286,0.176,0.401
-4.113,-0.057,9.740,-0.264,0.169,0.407
-4.108,-0.062,9.744,-0.248,0.157,0.420
-4.061,-0.072,9.764,-0.238,0.141,0.435
-3.989,-0.096,9.744,-0.235,0.123,0.447
-3.864,-0.124,9.706,-0.234,0.113,0.453
-3.802,-0.120,9.649,-0.236,0.112,0.449
-3.845,-0.134,9.524,-0.245,0.120,0.442
-4.017,-0.148,9.414,-0.259,0.126,0.441
-4.161,-0.182,9.342,-0.280,0.127,0.450
-4.290,-0.201,9.328,-0.302,0.126,0.471
-4.319,-0.249,9.385,-0.323,0.124,0.499
-4.290,-0.283,9.495,-0.341,0.118,0.530
-4.209,-0.345,9.658,-0.354,0.118,0.561
-4.089,-0.407,9.850,-0.354,0.122,0.592
-3.950,-0.441,9.926,-0.346,0.130,0.620
-3.845,-0.455,9.960,-0.339,0.136,0.640
-3.759,-0.464,9.979,-0.337,0.137,0.650
-3.754,-0.455,9.965,-0.335,0.132,0.658
-3.754,-0.474,9.974,-0.335,0.124,0.668
-3.768,-0.484,9.979,-0.335,0.110,0.680
-3.759,-0.484,9.941,-0.335,0.093,0.690
-3.692,-0.503,9.907,-0.336,0.071,0.699
-3.553,-0.536,9.850,-0.332,0.049,0.696

19.623,-5.669,17.435,-0.398,-0.947,0.076
22.170,-6.072,18.047,-0.318,-0.844,-0.346
24.316,-6.512,18.569,-0.189,-0.723,-0.921
25.948,-7.111,19.000,-0.015,-0.548,-1.624
26.667,-7.877,19.355,0.209,-0.299,-2.401
25.877,-8.892,19.484,0.529,-0.016,-3.321
23.899,-9.845,19.144,0.836,0.153,-4.016
21.533,-10.592,18.263,1.112,0.247,-4.366
19.474,-11.253,17.248,1.327,0.298,-4.366
17.645,-11.918,16.295,1.478,0.329,-4.366
15.960,-12.675,15.514,1.604,0.392,-4.366
13.685,-13.575,14.739,1.746,0.514,-4.366
11.463,-14.394,14.030,1.879,0.602,-4.366
9.021,-15.026,13.240,2.018,0.775,-4.366
5.990,-15.505,12.072,2.143,0.899,-4.366
3.079,-15.687,10.803,2.232,0.932,-4.366
0.316,-15.663,9.433,2.270,0.923,-4.366
-2.380,-15.409,8.145,2.250,0.847,-4.366
-5.219,-14.954,7.001,2.160,0.666,-4.366
-7.379,-14.542,6.488,2.055,0.476,-4.366
-9.275,-14.064,6.297,1.930,0.288,-4.366
-10.884,-13.680,6.383,1.806,0.130,-4.366
-12.244,-13.336,6.761,1.698,0.025,-4.366
-13.446,-12.981,7.192,1.623,-0.015,-4.366
-14.451,-12.589,7.503,1.577,-0.007,-4.366
-15.174,-12.134,7.623,1.555,0.084,-4.366
-15.783,-11.665,7.451,1.538,0.298,-4.366
-16.812,-10.937,6.795,1.477,0.581,-4.366
-17.870,-10.252,6.081,1.386,0.694,-4.366
-18.689,-9.515,5.583,1.252,0.710,-4.366
-19.254,-8.887,5.315,1.090,0.697,-4.342
-19.561,-8.303,5.306,0.921,0.667,-4.022
-19.589,-7.724,5.473,0.764,0.607,-3.718
-19.455,-7.106,5.780,0.628,0.519,-3.445
-19.178,-6.584,6.244,0.528,0.436,-3.200
-18.818,-6.072,6.632,0.461,0.395,-2.976
-18.541,-5.555,6.905,0.422,0.367,-2.769
-18.316,-5.076,7.302,0.408,0.321,-2.531
-18.134,-4.693,7.590,0.423,0.275,-2.316
-17.875,-4.391,7.858,0.468,0.239,-2.075
-17.506,-4.094,8.092,0.552,0.213,-1.803
-16.874,-3.677,7.944,0.657,0.207,-1.522
-15.979,-3.036,7.355,0.739,0.219,-1.259
-14.964,-2.294,6.608,0.766,0.232,-1.046
-14.035,-1.681,6.043,0.739,0.240,-0.882
-13.269,-1.221,5.693,0.686,0.252,-0.746
-12.546,-0.843,5.420,0.617,0.271,-0.623
-11.933,-0.488,5.162,0.535,0.281,-0.516
-11.425,-0.220,5.018,0.452,0.283,-0.416
-10.970,-0.010,4.946,0.370,0.274,-0.312
-10.348,0.215,4.875,0.278,0.261,-0.192
-9.869,0.354,4.956,0.204,0.246,-0.096
-9.347,0.479,5.138,0.137,0.214,-0.006
-8.854,0.622,5.339,0.075,0.183,0.078
-8.356,0.718,5.540,0.013,0.148,0.153
-7.915,0.752,5.856,-0.043,0.112,0.222
-7.494,0.766,6.220,-0.086,0.077,0.288
-7.072,0.771,6.512,-0.120,0.057,0.353
-6.656,0.781,6.718,-0.152,0.053,0.414
-6.220,0.776,6.919,-0.188,0.052,0.467
-5.799,0.690,7.168,-0.221,0.050,0.511
-5.444,0.594,7.422,-0.241,0.050,0.544
-5.061,0.517,7.709,-0.255,0.053,0.575
-4.717,0.464,7.877,-0.267,0.060,0.596
-4.434,0.479,7.939,-0.287,0.066,0.608
-4.219,0.469,8.059,-0.324,0.066,0.613
-4.056,0.402,8.298,-0.363,0.058,0.618
-3.888,0.297,8.595,-0.395,0.048,0.626
-3.649,0.215,8.873,-0.418,0.040,0.641
-3.352,0.172,9.131,-0.437,0.031,0.651
-3.041,0.120,9.380,-0.452,0.021,0.649
-2.739,0.067,9.620,-0.460,0.013,0.636
-2.500,-0.005,9.831,-0.458,0.011,0.612
-2.337,-0.072,10.089,-0.444,0.019,0.580
-2.260,-0.168,10.324,-0.414,0.033,0.551
-2.298,-0.259,10.491,-0.368,0.051,0.529
-2.370,-0.326,10.544,-0.305,0.078,0.518
-2.404,-0.283,10.434,-0.260,0.097,0.512
-2.452,-0.225,10.295,-0.234,0.114,0.505
-2.528,-0.192,10.175,-0.223,0.131,0.498
-2.567,-0.211,10.113,-0.220,0.151,0.494
-2.591,-0.239,10.046,-0.217,0.167,0.490
-2.634,-0.254,9.979,-0.212,0.167,0.481
-2.710,-0.268,9.936,-0.205,0.153,0.466
-2.801,-0.273,9.874,-0.200,0.131,0.454
-2.897,-0.259,9.821,-0.195,0.105,0.443
-2.954,-0.268,9.773,-0.195,0.078,0.433
-3.002,-0.316,9.744,-0.197,0.054,0.427
-3.026,-0.364,9.802,-0.197,0.039,0.423
-3.045,-0.393,9.797,-0.195,0.035,0.423
-3.122,-0.421,9.706,-0.199,0.040,0.424
-3.251,-0.445,9.606,-0.211,0.041,0.426
-3.366,-0.469,9.543,-0.227,0.041,0.429
-3.515,-0.532,9.572,-0.246,0.038,0.432
-3.682,-0.608,9.658,-0.259,0.031,0.442
-3.812,-0.694,9.744,-0.263,0.022,0.456
-3.893,-0.737,9.787,-0.264,0.012,0.473
-3.965,-0.766,9.835,-0.269,0.002,0.492
-4.017,-0.804,9.859,-0.275,-0.011,0.514
-4.013,-0.867,9.931,-0.279,-0.019,0.539

19.115,-5.329,17.540,-0.129,-0.071,-1.403
19.968,-6.124,18.210,0.117,0.109,-1.954
19.771,-6.809,18.392,0.382,0.280,-2.430
18.972,-7.374,18.024,0.655,0.412,-2.863
17.947,-7.815,17.301,0.879,0.464,-3.233
17.195,-8.236,16.601,1.035,0.472,-3.554
16.611,-8.811,16.223,1.140,0.462,-3.858
16.099,-9.515,16.137,1.226,0.449,-4.164
15.265,-10.482,16.175,1.340,0.485,-4.366
14.279,-11.349,16.257,1.460,0.553,-4.366
13.015,-12.177,16.156,1.596,0.650,-4.366
11.487,-12.838,15.845,1.748,0.748,-4.366
9.797,-13.398,15.490,1.887,0.818,-4.366
7.810,-13.925,15.088,2.026,0.898,-4.366
5.219,-14.581,14.562,2.207,0.939,-4.366
2.969,-15.007,13.958,2.378,0.965,-4.366
0.599,-15.160,13.001,2.559,0.966,-4.366
-1.733,-15.093,11.732,2.722,0.914,-4.366
-4.061,-14.844,10.223,2.850,0.829,-4.366
-6.531,-14.404,8.557,2.922,0.698,-4.366
-9.069,-13.910,6.847,2.946,0.518,-4.366
-11.655,-13.312,5.148,2.909,0.272,-4.366
-14.427,-12.517,3.558,2.776,-0.027,-4.366
-16.549,-11.851,2.682,2.572,-0.184,-4.366
-18.526,-11.267,2.006,2.320,-0.260,-4.366
-20.245,-10.707,1.518,2.050,-0.365,-4.366
-21.232,-10.142,1.288,1.750,-0.478,-4.366
-21.586,-9.529,1.437,1.425,-0.483,-4.366
-21.725,-9.031,1.958,1.106,-0.363,-4.366
-21.845,-8.643,2.749,0.831,-0.151,-4.253
-22.137,-8.246,3.740,0.591,0.133,-3.805
-22.410,-7.920,4.511,0.455,0.321,-3.426
-22.520,-7.513,5.215,0.374,0.429,-3.053
-22.362,-7.140,5.928,0.350,0.477,-2.689
-21.936,-6.699,6.416,0.390,0.492,-2.341
-21.328,-6.144,6.517,0.469,0.479,-2.018
-20.619,-5.473,6.292,0.551,0.426,-1.724
-19.733,-4.688,5.918,0.609,0.329,-1.460
-18.675,-3.926,5.531,0.633,0.205,-1.223
-17.521,-3.194,5.224,0.624,0.068,-1.013
-16.319,-2.523,5.104,0.591,-0.057,-0.823
-14.969,-1.834,5.033,0.535,-0.151,-0.620
-13.834,-1.322,5.028,0.470,-0.180,-0.449
-12.637,-0.819,5.023,0.390,-0.170,-0.289
-11.502,-0.393,5.066,0.299,-0.120,-0.136
-10.410,-0.010,5.243,0.201,-0.059,0.005
-9.313,0.225,5.521,0.114,0.007,0.130
-8.250,0.417,5.818,0.046,0.077,0.230
-7.365,0.594,6.153,-0.005,0.146,0.304
-6.618,0.723,6.378,-0.039,0.196,0.353
-6.014,0.824,6.603,-0.062,0.233,0.379
-5.531,0.886,6.823,-0.078,0.248,0.390
-5.143,0.962,6.972,-0.087,0.244,0.388
-4.851,1.001,7.140,-0.099,0.217,0.378
-4.549,1.015,7.307,-0.113,0.170,0.371
-4.209,1.058,7.518,-0.133,0.123,0.372
-3.783,1.063,7.805,-0.160,0.088,0.381
-3.247,1.015,8.164,-0.183,0.066,0.388
-2.720,0.915,8.610,-0.190,0.056,0.377
-2.255,0.814,9.050,-0.173,0.066,0.342
-1.992,0.776,9.313,-0.140,0.096,0.291
-1.982,0.757,9.371,-0.110,0.128,0.237
-2.126,0.723,9.342,-0.088,0.151,0.193
-2.318,0.685,9.294,-0.078,0.157,0.164
-2.428,0.646,9.275,-0.075,0.146,0.146
-2.466,0.618,9.266,-0.076,0.128,0.129
-2.538,0.565,9.203,-0.080,0.111,0.110
-2.658,0.522,9.131,-0.090,0.099,0.094
-2.782,0.488,9.064,-0.108,0.094,0.086
-2.863,0.421,9.079,-0.132,0.091,0.084
-2.907,0.364,9.165,-0.159,0.092,0.090
-2.883,0.292,9.290,-0.178,0.101,0.100
-2.796,0.235,9.448,-0.197,0.122,0.106
-2.763,0.172,9.572,-0.212,0.151,0.107
-2.811,0.096,9.711,-0.221,0.177,0.104
-2.911,-0.005,9.864,-0.219,0.198,0.099
-3.055,-0.101,10.046,-0.210,0.212,0.100
-3.203,-0.158,10.118,-0.189,0.217,0.106
-3.338,-0.177,10.065,-0.166,0.205,0.111
-3.472,-0.187,10.017,-0.147,0.175,0.110
-3.582,-0.187,9.931,-0.129,0.131,0.108
-3.644,-0.187,9.821,-0.115,0.085,0.107
-3.639,-0.196,9.735,-0.106,0.048,0.107
-3.649,-0.196,9.649,-0.103,0.018,0.106
-3.658,-0.230,9.625,-0.105,-0.004,0.111
-3.682,-0.249,9.586,-0.115,-0.013,0.122
-3.687,-0.273,9.558,-0.132,-0.008,0.139
-3.692,-0.297,9.548,-0.156,0.003,0.158
-3.701,-0.311,9.553,-0.185,0.016,0.178
-3.749,-0.359,9.596,-0.214,0.031,0.201
-3.764,-0.393,9.682,-0.242,0.044,0.228
-3.783,-0.436,9.787,-0.263,0.057,0.258
-3.745,-0.503,9.922,-0.279,0.067,0.289
-3.687,-0.546,10.084,-0.282,0.072,0.318
-3.601,-0.536,10.218,-0.277,0.070,0.338
-3.486,-0.541,10.319,-0.262,0.061,0.348
-3.419,-0.546,10.424,-0.239,0.048,0.347
-3.400,-0.551,10.491,-0.212,0.032,0.344
-3.395,-0.541,10.463,-0.187,0.016,0.343
-3.328,-0.512,10.405,-0.169,-0.001,0.346

14.739,-6.268,19.795,0.392,-0.353,-1.526
15.328,-6.574,20.145,0.537,-0.303,-1.754
16.166,-6.886,20.394,0.680,-0.226,-1.974
17.363,-7.254,20.475,0.846,-0.067,-2.241
18.354,-7.570,20.379,0.986,0.122,-2.496
19.235,-7.944,20.202,1.131,0.314,-2.788
20.044,-8.475,19.953,1.294,0.514,-3.128
20.633,-9.103,19.575,1.478,0.728,-3.524
20.691,-9.773,19.029,1.683,0.937,-3.966
19.992,-10.467,18.316,1.911,1.098,-4.366
18.273,-11.277,17.233,2.195,1.176,-4.366
16.324,-12.014,16.036,2.445,1.134,-4.366
14.178,-12.775,14.815,2.680,1.029,-4.366
11.746,-13.546,13.408,2.905,0.902,-4.366
9.246,-14.135,11.890,3.102,0.717,-4.366
6.225,-14.643,10.013,3.283,0.492,-4.366
3.357,-14.758,8.241,3.382,0.331,-4.366
0.144,-14.720,6.321,3.410,0.162,-4.366
-3.069,-14.672,4.338,3.366,-0.036,-4.366
-5.890,-14.609,2.667,3.223,-0.198,-4.366
-8.509,-14.466,1.369,3.002,-0.302,-4.366
-10.913,-14.188,0.579,2.726,-0.420,-4.366
-12.953,-13.829,0.354,2.416,-0.539,-4.366
-14.700,-13.484,0.608,2.106,-0.559,-4.366
-16.338,-12.991,1.144,1.806,-0.423,-4.366
-18.162,-12.431,1.800,1.502,-0.176,-4.366
-19.383,-11.890,2.251,1.284,0.016,-4.366
-20.288,-11.406,2.672,1.090,0.179,-4.366
-21.016,-11.286,3.347,0.975,0.316,-4.366
-21.735,-10.760,4.128,0.929,0.469,-4.366
-22.352,-10.434,4.549,0.830,0.580,-4.275
-22.960,-10.089,4.831,0.766,0.659,-3.988
-23.803,-9.529,5.047,0.693,0.679,-3.652
-24.330,-9.045,5.358,0.622,0.630,-3.347
-24.502,-8.552,5.775,0.562,0.559,-3.013
-24.292,-8.025,6.258,0.520,0.481,-2.669
-23.813,-7.489,6.723,0.503,0.394,-2.332
-23.147,-6.919,7.192,0.515,0.306,-2.006
-22.290,-6.258,7.384,0.552,0.250,-1.687
-21.251,-5.502,7.250,0.590,0.233,-1.374
-20.049,-4.697,6.914,0.611,0.236,-1.076
-18.756,-3.859,6.483,0.614,0.239,-0.806
-17.425,-3.079,6.105,0.590,0.234,-0.573
-16.046,-2.298,5.775,0.539,0.238,-0.364
-14.662,-1.590,5.502,0.474,0.250,-0.181
-13.001,-0.838,5.243,0.392,0.261,-0.008
-11.688,-0.244,5.047,0.316,0.271,0.100
-10.578,0.230,4.922,0.238,0.271,0.176
-9.644,0.584,4.846,0.164,0.261,0.234
-8.825,0.848,4.899,0.095,0.234,0.283
-8.102,1.077,5.042,0.035,0.205,0.330
-7.503,1.245,5.243,-0.014,0.171,0.379
-6.910,1.346,5.454,-0.057,0.132,0.430
-6.282,1.446,5.602,-0.104,0.097,0.476
-5.689,1.518,5.842,-0.161,0.069,0.509
-5.143,1.504,6.225,-0.215,0.049,0.531
-4.611,1.417,6.689,-0.256,0.039,0.545
-4.085,1.350,7.159,-0.283,0.044,0.548
-3.630,1.317,7.532,-0.302,0.055,0.539
-3.251,1.259,7.791,-0.315,0.065,0.517
-3.050,1.192,8.068,-0.331,0.070,0.487
-2.916,1.111,8.313,-0.345,0.072,0.462
-2.792,0.986,8.614,-0.356,0.074,0.444
-2.629,0.843,8.935,-0.360,0.070,0.428
-2.437,0.723,9.242,-0.355,0.064,0.406
-2.332,0.560,9.519,-0.341,0.063,0.375
-2.380,0.436,9.759,-0.320,0.070,0.346
-2.480,0.330,9.898,-0.298,0.079,0.324
-2.581,0.244,9.998,-0.280,0.084,0.305
-2.658,0.163,10.089,-0.269,0.084,0.292
-2.729,0.053,10.218,-0.260,0.085,0.282
-2.772,-0.014,10.319,-0.247,0.086,0.276
-2.806,-0.091,10.348,-0.230,0.084,0.269
-2.796,-0.120,10.300,-0.213,0.086,0.266
-2.787,-0.134,10.218,-0.206,0.085,0.259
-2.777,-0.172,10.204,-0.201,0.080,0.248
-2.825,-0.239,10.228,-0.192,0.077,0.235
-2.911,-0.297,10.242,-0.179,0.075,0.224
-3.089,-0.330,10.195,-0.165,0.076,0.217
-3.256,-0.330,10.127,-0.155,0.079,0.221
-3.419,-0.330,10.094,-0.148,0.081,0.235
-3.519,-0.345,10.051,-0.141,0.078,0.254
-3.539,-0.326,10.017,-0.136,0.075,0.275
-3.481,-0.297,9.974,-0.132,0.070,0.290
-3.395,-0.268,9.898,-0.129,0.064,0.298
-3.333,-0.239,9.764,-0.125,0.054,0.298
-3.290,-0.192,9.615,-0.128,0.037,0.293
-3.256,-0.148,9.524,-0.137,0.017,0.286
-3.266,-0.129,9.491,-0.148,-0.002,0.283
-3.275,-0.115,9.505,-0.161,-0.017,0.282
-3.256,-0.091,9.524,-0.179,-0.026,0.284
-3.203,-0.072,9.562,-0.200,-0.024,0.291
-3.146,-0.062,9.663,-0.222,-0.010,0.298
-3.036,-0.091,9.802,-0.242,0.011,0.304
-2.911,-0.139,9.931,-0.257,0.038,0.302
-2.830,-0.215,10.027,-0.267,0.068,0.293
-2.902,-0.297,10.089,-0.274,0.099,0.273
-3.041,-0.359,10.118,-0.280,0.114,0.254
-3.232,-0.450,10.166,-0.286,0.116,0.236
-3.481,-0.603,10.285,-0.282,0.107,0.228

15.639,-5.899,19.719,0.503,-0.432,-1.379
17.023,-6.167,20.183,0.628,-0.334,-1.613
18.239,-6.397,20.389,0.760,-0.214,-1.877
19.422,-6.646,20.403,0.897,-0.068,-2.177
20.643,-6.996,20.370,1.064,0.169,-2.573
21.457,-7.518,20.116,1.231,0.371,-2.978
21.754,-8.083,19.609,1.429,0.571,-3.456
21.189,-8.787,18.751,1.656,0.710,-3.986
19.776,-9.529,17.593,1.893,0.791,-4.366
17.851,-10.362,16.204,2.116,0.798,-4.366
15.591,-11.219,14.844,2.324,0.710,-4.366
12.526,-12.206,13.331,2.554,0.555,-4.366
9.582,-12.948,12.019,2.738,0.346,-4.366
6.565,-13.580,10.630,2.900,0.134,-4.366
3.347,-13.968,9.036,3.030,-0.076,-4.366
0.072,-14.016,7.250,3.083,-0.277,-4.366
-3.314,-13.824,5.329,3.046,-0.511,-4.366
-6.282,-13.532,3.721,2.910,-0.775,-4.366
-8.748,-13.388,2.547,2.694,-0.913,-4.366
-11.018,-13.360,1.628,2.438,-0.950,-4.366
-13.408,-13.283,0.895,2.125,-0.934,-4.366
-15.251,-12.972,0.474,1.822,-0.887,-4.366
-16.812,-12.531,0.359,1.454,-0.759,-4.366
-18.148,-12.129,0.651,1.045,-0.508,-4.366
-19.498,-11.823,1.374,0.646,-0.200,-4.366
-20.820,-11.598,2.614,0.304,0.063,-4.366
-21.926,-11.564,4.362,0.073,0.289,-4.366
-22.884,-11.463,6.206,-0.026,0.537,-4.270
-23.434,-11.143,7.178,0.005,0.691,-3.902
-23.798,-10.606,7.551,0.082,0.759,-3.556
-24.057,-10.013,7.714,0.159,0.730,-3.231
-24.114,-9.419,7.853,0.237,0.634,-2.908
-23.937,-8.720,7.877,0.320,0.513,-2.573
-23.406,-7.968,7.743,0.384,0.364,-2.236
-22.491,-7.187,7.547,0.429,0.210,-1.903
-21.203,-6.354,7.422,0.457,0.053,-1.593
-19.403,-5.377,7.202,0.474,-0.073,-1.271
-17.822,-4.468,6.910,0.464,-0.096,-1.027
-16.400,-3.630,6.546,0.411,-0.064,-0.810
-15.002,-2.911,6.345,0.339,-0.027,-0.623
-13.666,-2.313,6.302,0.268,0.039,-0.465
-12.426,-1.791,6.278,0.203,0.129,-0.327
-11.286,-1.240,6.196,0.142,0.219,-0.213
-10.262,-0.781,6.072,0.075,0.292,-0.123
-9.376,-0.412,6.100,0.014,0.347,-0.050
-8.633,-0.153,6.220,-0.028,0.384,0.007
-7.944,0.053,6.287,-0.053,0.407,0.056
-7.422,0.259,6.340,-0.066,0.411,0.094
-6.958,0.421,6.426,-0.074,0.387,0.128
-6.503,0.546,6.469,-0.074,0.343,0.160
-6.014,0.675,6.565,-0.070,0.293,0.185
-5.598,0.766,6.704,-0.064,0.232,0.198
-5.282,0.848,6.847,-0.059,0.164,0.210
-4.956,0.924,6.996,-0.060,0.096,0.220
-4.640,0.982,7.120,-0.077,0.056,0.232
-4.310,0.982,7.302,-0.111,0.013,0.233
-4.003,0.900,7.585,-0.153,-0.004,0.227
-3.816,0.742,7.939,-0.192,-0.002,0.221
-3.625,0.565,8.370,-0.222,0.022,0.225
-3.452,0.417,8.744,-0.240,0.061,0.234
-3.285,0.297,9.036,-0.252,0.111,0.242
-3.160,0.182,9.280,-0.264,0.157,0.239
-3.074,0.043,9.467,-0.272,0.189,0.225
-3.060,-0.091,9.649,-0.271,0.205,0.202
-3.108,-0.254,9.807,-0.262,0.202,0.176
-3.218,-0.383,9.922,-0.246,0.180,0.151
-3.347,-0.498,9.984,-0.224,0.136,0.124
-3.510,-0.613,10.003,-0.198,0.081,0.103
-3.673,-0.713,10.013,-0.174,0.026,0.090
-3.768,-0.824,10.108,-0.152,-0.029,0.089
-3.759,-0.919,10.180,-0.126,-0.071,0.099
-3.639,-0.972,10.266,-0.096,-0.088,0.114
-3.543,-0.958,10.209,-0.075,-0.083,0.128
-3.515,-0.919,10.142,-0.070,-0.062,0.139
-3.510,-0.905,10.084,-0.074,-0.027,0.155
-3.486,-0.871,10.036,-0.082,0.017,0.177
-3.448,-0.828,9.950,-0.094,0.075,0.207
-3.443,-0.795,9.821,-0.111,0.117,0.231
-3.428,-0.766,9.778,-0.133,0.144,0.252
-3.400,-0.761,9.744,-0.148,0.160,0.271
-3.395,-0.809,9.730,-0.155,0.161,0.284
-3.338,-0.828,9.754,-0.152,0.144,0.294
-3.165,-0.800,9.716,-0.147,0.122,0.293
-3.026,-0.781,9.668,-0.144,0.096,0.275
-3.031,-0.785,9.649,-0.143,0.063,0.245
-3.136,-0.828,9.663,-0.146,0.017,0.215
-3.256,-0.900,9.730,-0.151,-0.025,0.197
-3.304,-0.948,9.821,-0.152,-0.060,0.188
-3.304,-0.986,9.960,-0.154,-0.076,0.183
-3.352,-1.020,10.036,-0.154,-0.081,0.181
-3.443,-1.082,10.089,-0.153,-0.073,0.187
-3.553,-1.125,10.147,-0.150,-0.057,0.203
-3.639,-1.197,10.233,-0.141,-0.037,0.228
-3.630,-1.231,10.271,-0.129,-0.011,0.254
-3.625,-1.235,10.204,-0.122,0.013,0.276
-3.591,-1.226,10.137,-0.120,0.031,0.290
-3.563,-1.216,10.046,-0.119,0.042,0.298
-3.606,-1.197,9.984,-0.121,0.048,0.304
-3.634,-1.207,9.960,-0.125,0.040,0.307
-3.668,-1.235,9.989,-0.119,0.026,0.311

14.906,-6.325,19.838,0.710,0.178,-1.621
15.653,-6.689,19.767,0.906,0.240,-1.932
16.084,-7.025,19.503,1.090,0.297,-2.275
16.180,-7.537,19.197,1.299,0.340,-2.699
15.998,-7.997,18.866,1.458,0.374,-3.055
15.548,-8.437,18.421,1.613,0.385,-3.396
14.997,-8.906,18.028,1.760,0.365,-3.736
14.183,-9.433,17.588,1.911,0.343,-4.070
13.149,-9.941,16.980,2.069,0.338,-4.366
11.756,-10.405,16.146,2.225,0.343,-4.366
9.792,-10.903,14.992,2.388,0.337,-4.366
7.982,-11.258,13.910,2.513,0.294,-4.366
6.321,-11.511,12.766,2.618,0.269,-4.366
4.515,-11.760,11.617,2.708,0.242,-4.366
2.739,-12.005,10.410,2.796,0.182,-4.366
0.953,-12.038,9.060,2.858,0.110,-4.366
-1.039,-11.847,7.518,2.873,0.021,-4.366
-3.347,-11.454,5.938,2.814,-0.076,-4.366
-5.784,-11.042,4.640,2.677,-0.195,-4.366
-8.068,-10.721,3.826,2.495,-0.321,-4.366
-10.333,-10.429,3.333,2.270,-0.452,-4.366
-11.890,-10.214,3.122,2.079,-0.523,-4.366
-13.187,-9.993,2.883,1.894,-0.571,-4.366
-14.107,-9.835,2.643,1.719,-0.590,-4.366
-14.949,-9.711,2.351,1.556,-0.493,-4.366
-16.127,-9.433,1.963,1.389,-0.326,-4.366
-17.684,-9.131,1.556,1.202,-0.203,-4.366
-19.336,-8.954,1.408,0.998,-0.127,-4.366
-20.992,-8.882,1.590,0.790,-0.077,-4.366
-22.860,-8.940,2.279,0.580,-0.030,-4.227
-24.311,-8.892,3.021,0.451,-0.037,-3.947
-25.441,-8.710,3.615,0.365,-0.085,-3.635
-26.217,-8.447,4.219,0.310,-0.103,-3.288
-26.758,-8.303,4.865,0.294,-0.068,-2.905
-26.978,-7.681,5.583,0.412,0.021,-2.451
-27.308,-6.910,5.895,0.345,0.059,-2.036
-26.940,-6.402,6.278,0.310,0.064,-1.582
-26.312,-5.837,6.618,0.294,0.098,-1.089
-25.091,-5.282,6.881,0.313,0.119,-0.593
-23.329,-4.602,6.881,0.356,0.187,-0.105
-21.117,-3.764,6.536,0.394,0.258,0.330
-18.378,-2.705,5.708,0.405,0.339,0.740
-16.175,-1.877,4.908,0.364,0.379,1.011
-14.078,-1.250,4.305,0.286,0.377,1.231
-11.976,-0.651,3.855,0.187,0.353,1.411
-9.840,-0.115,3.610,0.067,0.302,1.545
-7.786,0.335,3.577,-0.074,0.236,1.628
-5.847,0.656,3.898,-0.229,0.180,1.653
-4.185,0.857,4.511,-0.378,0.154,1.630
-2.739,0.939,5.377,-0.498,0.139,1.583
-1.556,0.929,6.383,-0.583,0.140,1.500
-0.666,0.881,7.417,-0.637,0.155,1.390
-0.148,0.790,8.413,-0.663,0.186,1.270
0.057,0.666,9.323,-0.661,0.221,1.156
0.081,0.527,10.070,-0.636,0.251,1.063
0.062,0.436,10.616,-0.599,0.278,0.985
0.072,0.340,11.056,-0.558,0.298,0.916
0.072,0.225,11.420,-0.515,0.314,0.851
0.057,0.110,11.756,-0.456,0.334,0.784
-0.086,0.048,11.885,-0.391,0.339,0.718
-0.306,-0.038,11.942,-0.330,0.332,0.657
-0.627,-0.163,11.909,-0.269,0.313,0.614
-0.809,-0.268,11.837,-0.208,0.284,0.588
-0.881,-0.340,11.688,-0.154,0.258,0.564
-0.852,-0.388,11.487,-0.108,0.230,0.536
-0.857,-0.431,11.190,-0.071,0.211,0.499
-0.958,-0.455,10.908,-0.047,0.194,0.457
-1.130,-0.474,10.592,-0.034,0.180,0.418
-1.331,-0.484,10.295,-0.034,0.165,0.382
-1.551,-0.493,10.070,-0.045,0.147,0.352
-1.733,-0.522,9.859,-0.060,0.129,0.325
-1.968,-0.579,9.773,-0.080,0.117,0.306
-2.145,-0.637,9.735,-0.092,0.112,0.297
-2.294,-0.646,9.711,-0.102,0.105,0.292
-2.423,-0.637,9.615,-0.114,0.094,0.287
-2.509,-0.622,9.582,-0.129,0.079,0.280
-2.605,-0.666,9.606,-0.138,0.064,0.267
-2.763,-0.699,9.591,-0.144,0.050,0.252
-2.954,-0.728,9.625,-0.149,0.030,0.240
-3.151,-0.761,9.625,-0.154,0.008,0.232
-3.395,-0.785,9.620,-0.160,-0.012,0.232
-3.610,-0.804,9.615,-0.169,-0.031,0.241
-3.730,-0.828,9.644,-0.178,-0.052,0.253
-3.840,-0.881,9.682,-0.188,-0.066,0.267
-3.917,-0.962,9.706,-0.192,-0.080,0.282
-4.032,-1.058,9.773,-0.190,-0.094,0.297
-4.104,-1.106,9.759,-0.184,-0.104,0.308
-4.209,-1.125,9.658,-0.181,-0.109,0.315
-4.396,-1.164,9.534,-0.185,-0.120,0.323
-4.650,-1.202,9.452,-0.187,-0.137,0.335
-4.884,-1.245,9.361,-0.187,-0.160,0.357
-5.100,-1.288,9.275,-0.188,-0.186,0.389
-5.239,-1.336,9.227,-0.190,-0.210,0.433
-5.296,-1.365,9.213,-0.194,-0.225,0.479
-5.282,-1.389,9.218,-0.201,-0.228,0.526
-5.210,-1.408,9.256,-0.209,-0.217,0.572
-5.124,-1.413,9.285,-0.216,-0.191,0.615
-5.028,-1.408,9.285,-0.223,-0.151,0.655
-4.927,-1.355,9.227,-0.233,-0.108,0.688
-4.836,-1.302,9.136,-0.246,-0.070,0.710

16.922,-6.670,17.243,1.102,0.009,-3.572
16.554,-7.336,17.358,1.298,0.076,-3.918
15.787,-7.863,16.946,1.504,0.186,-4.251
14.662,-8.375,16.127,1.693,0.274,-4.366
13.211,-9.074,15.088,1.885,0.332,-4.366
11.981,-9.677,14.193,2.038,0.348,-4.366
10.716,-10.271,13.245,2.186,0.344,-4.366
9.098,-10.788,12.024,2.321,0.304,-4.366
7.269,-11.224,10.726,2.411,0.257,-4.366
5.037,-11.617,9.342,2.453,0.195,-4.366
2.634,-11.923,8.135,2.448,0.083,-4.366
0.259,-12.354,7.149,2.407,-0.067,-4.366
-2.380,-12.617,6.416,2.316,-0.251,-4.366
-4.683,-12.742,6.033,2.201,-0.422,-4.366
-7.116,-12.799,5.842,2.064,-0.609,-4.366
-9.500,-12.953,5.942,1.915,-0.737,-4.366
-11.928,-13.144,6.297,1.768,-0.711,-4.366
-14.380,-13.278,6.517,1.656,-0.618,-4.366
-16.501,-13.259,6.493,1.559,-0.555,-4.366
-18.081,-13.139,6.325,1.452,-0.480,-4.366
-19.369,-12.933,5.981,1.317,-0.306,-4.366
-20.830,-12.459,5.420,1.122,-0.002,-4.366
-21.998,-12.048,4.966,0.934,0.248,-4.366
-22.917,-11.602,4.611,0.739,0.437,-4.366
-23.645,-11.095,4.515,0.541,0.562,-4.187
-24.229,-10.582,4.664,0.357,0.617,-3.812
-24.665,-10.084,5.128,0.203,0.610,-3.440
-24.890,-9.601,5.713,0.090,0.568,-3.058
-24.885,-9.117,6.349,0.022,0.525,-2.657
-24.526,-8.576,7.106,0.019,0.479,-2.162
-23.808,-7.992,7.570,0.078,0.424,-1.734
-22.687,-7.187,7.642,0.159,0.360,-1.338
-21.371,-6.297,7.460,0.228,0.282,-0.998
-20.078,-5.425,7.264,0.281,0.184,-0.706
-18.727,-4.568,7.106,0.321,0.080,-0.447
-17.329,-3.740,6.823,0.340,-0.001,-0.207
-15.869,-2.935,6.541,0.332,-0.073,0.011
-14.394,-2.236,6.340,0.295,-0.118,0.208
-12.948,-1.633,6.263,0.240,-0.130,0.383
-11.454,-1.111,6.225,0.177,-0.123,0.540
-9.955,-0.622,6.225,0.103,-0.084,0.669
-8.566,-0.220,6.282,0.027,-0.033,0.767
-7.298,0.053,6.369,-0.046,0.034,0.830
-6.268,0.268,6.493,-0.112,0.101,0.858
-5.353,0.431,6.642,-0.171,0.150,0.855
-4.697,0.589,6.761,-0.224,0.184,0.832
-4.223,0.642,6.948,-0.269,0.180,0.797
-3.831,0.637,7.197,-0.305,0.160,0.758
-3.543,0.575,7.537,-0.335,0.122,0.719
-3.318,0.450,7.992,-0.347,0.080,0.684
-3.108,0.292,8.533,-0.339,0.033,0.656
-2.907,0.144,9.041,-0.311,-0.003,0.633
-2.720,0.067,9.409,-0.274,-0.023,0.608
-2.557,0.034,9.629,-0.239,-0.029,0.580
-2.442,-0.014,9.740,-0.212,-0.032,0.552
-2.404,-0.110,9.917,-0.187,-0.032,0.527
-2.365,-0.172,10.022,-0.163,-0.028,0.509
-2.322,-0.201,9.989,-0.143,-0.017,0.497
-2.279,-0.196,9.926,-0.136,0.000,0.489
-2.174,-0.220,9.898,-0.137,0.021,0.481
-2.049,-0.230,9.869,-0.144,0.048,0.473
-1.939,-0.235,9.821,-0.155,0.074,0.460
-1.872,-0.249,9.816,-0.171,0.095,0.442
-1.872,-0.283,9.840,-0.186,0.111,0.418
-1.915,-0.364,9.917,-0.199,0.131,0.398
-1.992,-0.474,10.051,-0.204,0.149,0.389
-2.025,-0.613,10.309,-0.190,0.165,0.389
-1.973,-0.666,10.520,-0.158,0.183,0.387
-1.954,-0.651,10.511,-0.125,0.198,0.367
-2.025,-0.666,10.448,-0.097,0.199,0.330
-2.241,-0.685,10.424,-0.070,0.190,0.286
-2.595,-0.723,10.348,-0.041,0.169,0.254
-2.902,-0.718,10.204,-0.009,0.136,0.239
-3.098,-0.661,10.008,0.015,0.093,0.235
-3.223,-0.618,9.740,0.026,0.042,0.231
-3.328,-0.599,9.538,0.026,0.002,0.229
-3.409,-0.565,9.337,0.015,-0.025,0.233
-3.452,-0.532,9.146,-0.006,-0.040,0.241
-3.467,-0.527,9.012,-0.039,-0.042,0.250
-3.505,-0.555,8.916,-0.080,-0.036,0.260
-3.548,-0.584,8.916,-0.128,-0.021,0.275
-3.582,-0.642,9.031,-0.177,-0.005,0.292
-3.582,-0.733,9.242,-0.215,0.019,0.312
-3.625,-0.814,9.519,-0.236,0.051,0.336
-3.692,-0.900,9.764,-0.239,0.082,0.364
-3.745,-0.900,9.883,-0.233,0.109,0.395
-3.802,-0.910,9.902,-0.229,0.126,0.424
-3.840,-0.924,9.946,-0.228,0.126,0.448
-3.850,-0.982,9.989,-0.220,0.115,0.469
-3.879,-1.001,10.022,-0.205,0.099,0.485
-3.912,-0.996,10.017,-0.187,0.077,0.497
-4.013,-1.010,9.912,-0.172,0.049,0.507
-4.085,-1.020,9.850,-0.166,0.018,0.522
-4.085,-0.991,9.802,-0.166,-0.007,0.545
-3.960,-0.991,9.778,-0.170,-0.020,0.570
-3.745,-0.953,9.768,-0.179,-0.020,0.588
-3.572,-0.939,9.826,-0.192,-0.009,0.598
-3.481,-0.910,9.878,-0.207,0.012,0.608
-3.400,-0.910,9.965,-0.223,0.042,0.622
-3.270,-0.915,10.070,-0.236,0.075,0.635

15.850,-7.384,16.716,1.397,0.074,-3.920
15.136,-7.963,16.276,1.522,0.124,-4.257
14.068,-8.528,15.639,1.632,0.181,-4.366
12.584,-9.155,14.820,1.738,0.265,-4.366
11.186,-9.673,14.087,1.817,0.340,-4.366
9.735,-10.295,13.331,1.904,0.384,-4.366
8.097,-10.975,12.550,1.990,0.448,-4.366
6.187,-11.741,11.708,2.073,0.475,-4.366
4.310,-12.412,10.874,2.159,0.450,-4.366
2.365,-12.933,9.893,2.234,0.407,-4.366
0.335,-13.340,8.882,2.277,0.338,-4.366
-1.925,-13.570,7.910,2.288,0.251,-4.366
-4.879,-13.676,6.847,2.249,0.124,-4.366
-7.594,-13.580,6.067,2.171,-0.028,-4.366
-10.233,-13.388,5.440,2.043,-0.192,-4.366
-12.507,-13.120,4.966,1.875,-0.369,-4.366
-14.121,-12.900,4.788,1.678,-0.514,-4.366
-15.304,-12.752,4.942,1.488,-0.571,-4.366
-16.261,-12.598,5.358,1.318,-0.565,-4.366
-16.994,-12.412,5.890,1.179,-0.483,-4.366
-17.870,-12.153,6.416,1.061,-0.244,-4.366
-18.862,-11.799,6.479,0.974,-0.007,-4.366
-19.944,-11.382,6.517,0.878,0.178,-4.132
-21.012,-11.013,6.723,0.789,0.290,-3.848
-21.902,-10.645,7.106,0.724,0.355,-3.539
-22.568,-10.214,7.513,0.694,0.408,-3.203
-22.951,-9.677,7.858,0.693,0.452,-2.843
-22.970,-8.930,8.049,0.713,0.486,-2.409
-22.549,-8.250,8.083,0.744,0.496,-2.037
-21.739,-7.518,7.939,0.785,0.482,-1.686
-20.643,-6.704,7.594,0.826,0.444,-1.377
-19.427,-5.851,7.092,0.853,0.382,-1.117
-18.258,-5.013,6.574,0.864,0.316,-0.904
-17.210,-4.166,6.029,0.848,0.249,-0.721
-16.290,-3.472,5.741,0.821,0.170,-0.548
-15.366,-2.835,5.497,0.802,0.098,-0.372
-14.380,-2.198,5.210,0.781,0.043,-0.187
-13.226,-1.518,4.860,0.742,0.008,0.001
-11.937,-0.895,4.477,0.674,-0.007,0.178
-10.534,-0.215,4.266,0.573,0.015,0.338
-9.246,0.235,4.209,0.454,0.045,0.466
-7.896,0.565,4.310,0.337,0.069,0.564
-6.685,0.862,4.501,0.221,0.103,0.616
-5.775,1.010,4.808,0.118,0.144,0.635
-5.176,1.034,5.272,0.045,0.182,0.647
-4.659,1.015,5.684,0.004,0.211,0.654
-4.204,1.058,5.981,-0.024,0.225,0.650
-3.869,1.120,6.167,-0.053,0.214,0.629
-3.697,1.154,6.359,-0.094,0.175,0.600
-3.572,1.058,6.747,-0.135,0.118,0.576
-3.467,0.929,7.245,-0.165,0.068,0.570
-3.285,0.824,7.685,-0.184,0.033,0.575
-2.993,0.733,8.059,-0.198,0.013,0.583
-2.696,0.622,8.365,-0.213,0.011,0.585
-2.476,0.517,8.667,-0.228,0.026,0.582
-2.308,0.393,8.978,-0.237,0.047,0.575
-2.116,0.268,9.251,-0.241,0.073,0.563
-1.978,0.177,9.462,-0.239,0.104,0.540
-1.872,0.086,9.639,-0.235,0.135,0.508
-1.891,0.029,9.749,-0.229,0.165,0.471
-2.002,-0.010,9.840,-0.222,0.188,0.434
-2.155,-0.048,9.922,-0.215,0.209,0.408
-2.318,-0.101,10.008,-0.205,0.219,0.389
-2.461,-0.148,10.099,-0.191,0.217,0.379
-2.552,-0.187,10.218,-0.167,0.210,0.376
-2.567,-0.201,10.276,-0.136,0.210,0.376
-2.557,-0.158,10.185,-0.107,0.207,0.368
-2.557,-0.120,10.113,-0.094,0.189,0.352
-2.614,-0.144,10.080,-0.084,0.166,0.334
-2.705,-0.172,10.099,-0.072,0.145,0.321
-2.792,-0.187,10.094,-0.058,0.127,0.313
-2.878,-0.196,9.998,-0.046,0.106,0.312
-2.978,-0.172,9.926,-0.042,0.087,0.314
-3.031,-0.168,9.855,-0.045,0.075,0.321
-3.079,-0.163,9.831,-0.051,0.070,0.332
-3.079,-0.172,9.855,-0.052,0.070,0.343
-3.069,-0.163,9.792,-0.050,0.075,0.356
-3.089,-0.172,9.740,-0.051,0.082,0.371
-3.084,-0.153,9.649,-0.063,0.084,0.387
-2.983,-0.148,9.591,-0.081,0.078,0.401
-2.844,-0.201,9.692,-0.098,0.070,0.407
-2.744,-0.268,9.835,-0.102,0.063,0.402
-2.701,-0.302,9.946,-0.097,0.056,0.393
-2.710,-0.302,9.907,-0.096,0.049,0.383
-2.734,-0.283,9.864,-0.104,0.037,0.375
-2.772,-0.345,9.893,-0.119,0.023,0.373
-2.715,-0.421,10.041,-0.132,0.013,0.374
-2.629,-0.464,10.175,-0.137,0.011,0.373
-2.552,-0.508,10.295,-0.136,0.012,0.368
-2.509,-0.555,10.386,-0.130,0.017,0.362
-2.490,-0.579,10.458,-0.121,0.026,0.355
-2.490,-0.608,10.429,-0.113,0.032,0.345
-2.538,-0.599,10.372,-0.107,0.030,0.329
-2.629,-0.594,10.305,-0.105,0.017,0.314
-2.653,-0.603,10.353,-0.100,-0.004,0.302
-2.662,-0.599,10.381,-0.090,-0.025,0.292
-2.658,-0.584,10.348,-0.078,-0.044,0.282
-2.677,-0.594,10.357,-0.064,-0.068,0.274
-2.686,-0.618,10.429,-0.043,-0.074,0.275
-2.634,-0.603,10.463,-0.019,-0.063,0.282
